Folder: Biologic/data_examples (part 2)

File: SRDP_100ms.mpt
EC-Lab ASCII FILE
Nb header lines : 66

Chronoamperometry / Chronocoulometry

Run on channel : 1 (SN 3020)
User :
Electrode connection : standard
Ewe ctrl range : min = -10.00 V, max = 10.00 V
Ewe,I filtering : <None>
Channel : Grounded
Acquisition started on : 04/06/2022 13:48:24
Saved on :
	File : SRDP_2_1_01_srdp5x_cond1p5V_30xpulse-minus1V-read-plus200mV_t-100ms-dt-10-50-100-200-500ms-GISYA-EWE-materials_10_CA_C01.mpr
	Directory : C:\Users\AGH\Desktop\AnJ\2022-04-05-06_ITO_Ni[Me4Benzo]_Cu\
	Host : 192.109.209.128
Device : SP-300 (SN 0552)
Address : USB
EC-Lab for windows v11.20 (software)
Internet server v11.20 (firmware)
Command interpretor v11.20 (firmware)
Electrode material :
Initial state :
Electrolyte :
Comments :
Cable : standard
Electrode surface area : 0.001 cm²
Characteristic mass : 0.001 g
Equivalent Weight : 0.000 g/eq.
Density : 0.000 g/cm3
Ns                  0                   1                   2                   3                   4                   5                   6                   7
Ei (V)              0.000               0.200               0.000               -1.000              0.000               0.000               0.200               0.000
vs.                 Ref                 Ref                 Ref                 Ref                 Ref                 Ref                 Ref                 Ref
ti (h:m:s)          0:00:1.0000         0:00:1.0000         0:00:1.0000         0:00:0.1000         0:00:0.1000         0:00:0.0100         0:00:1.0000         0:00:0.1000
Imax                pass                pass                pass                pass                pass                pass                pass                pass
unit Imax           mA                  mA                  mA                  mA                  mA                  mA                  mA                  mA
Imin                pass                pass                pass                pass                pass                pass                pass                pass
unit Imin           mA                  mA                  mA                  mA                  mA                  mA                  mA                  mA
dQM                 0.000               0.000               0.000               0.000               0.000               0.000               0.000               0.000
unit dQM            mA.h                mA.h                mA.h                mA.h                mA.h                mA.h                mA.h                mA.h
record              I                   I                   I                   I                   I                   I                   I                   I
dI                  0.000               0.000               0.000               0.000               0.000               0.000               0.000               0.000
unit dI             µA                  µA                  µA                  µA                  µA                  µA                  µA                  µA
dQ                  0.000               0.000               0.000               0.000               0.000               0.000               0.000               0.000
unit dQ             mA.h                mA.h                mA.h                mA.h                mA.h                mA.h                mA.h                mA.h
dt (s)              0.5000              0.1000              0.1000              0.0050              0.0050              0.0010              0.1000              0.1000
dta (s)             0.1000              0.1000              0.1000              0.1000              0.1000              0.1000              0.1000              0.1000
E range min (V)     -10.000             -10.000             -10.000             -10.000             -10.000             -10.000             -10.000             -10.000
E range max (V)     10.000              10.000              10.000              10.000              10.000              10.000              10.000              10.000
I Range             100 mA              100 mA              100 mA              100 mA              100 mA              100 mA              100 mA              100 mA
I Range min         Unset               Unset               Unset               Unset               Unset               Unset               Unset               Unset
I Range max         Unset               Unset               Unset               Unset               Unset               Unset               Unset               Unset
I Range init        Unset               Unset               Unset               Unset               Unset               Unset               Unset               Unset
Bandwidth           5                   5                   5                   5                   5                   5                   5                   5
goto Ns'            0                   0                   0                   0                   3                   0                   0                   0
nc cycles           0                   0                   0                   0                   29                  0                   0                   0

Number of loops : 6
Loop 0 from point number 0 to 1308
Loop 1 from point number 1309 to 2617
Loop 2 from point number 2618 to 3926
Loop 3 from point number 3927 to 5235
Loop 4 from point number 5236 to 6544
Loop 5 from point number 6545 to 7853

mode	ox/red	error	control changes	Ns changes	counter inc.	Ns	time/s	control/V	Ewe/V	I/mA	dQ/C	(Q-Qo)/C	Q charge/discharge/mA.h	half cycle	Energy charge/W.h	Energy discharge/W.h	Capacitance charge/µF	Capacitance discharge/µF	Q discharge/mA.h	Q charge/mA.h	Capacity/mA.h	Efficiency/%	cycle number	P/W
2	1	0	0	0	0	0	442.742	2.54262e-05	6.96374e-05	0.0139745	0.0000000E+000	0.0000000E+000	0.000000000000000E+000	0	0.000000000000000E+000	0.000000000000000E+000	0.000000000000000E+000	0.000000000000000E+000	0.000000000000000E+000	0.000000000000000E+000	0.000000000000000E+000	0	0.000000000000000E+000	9.7315e-10
2	0	0	1	0	1	3	446.422	-0.999851	-0.99987	-10.7962	-0.000866994	-0.00183164	-0.000240832	7	2.04206e-14	2.40806e-07	17371.3	2.27277e+08	0.000240832	0.000000000000000E+000	0.000240832	0	3	0.0107948
2	0	0	1	0	1	3	447.217	-0.999851	-0.999874	-9.98192	-0.000758421	-0.00586967	-0.000210673	15	2.07727e-14	2.10647e-07	6713.89	1.52751e+07	0.000210673	0.000000000000000E+000	0.000210673	0	7	0.00998067
2	0	0	1	0	1	3	448.012	-0.999851	-0.999908	-8.95915	-0.000630142	-0.00951167	-0.000175039	23	2.27159e-14	1.75017e-07	19122.4	4.12808e+06	0.000175039	0.000000000000000E+000	0.000175039	0	11	0.00895833
2	0	0	1	0	1	3	448.807	-0.999851	-0.999843	-8.7575	-0.000571043	-0.0129979	-0.000158623	31	2.03046e-14	1.58604e-07	4155.03	7.48478e+07	0.000158623	0.000000000000000E+000	0.000158623	0	15	0.00875613
2	0	0	1	0	1	3	449.602	-0.999851	-0.999863	-8.46992	-0.000510766	-0.0163776	-0.000141879	39	1.01882e-14	1.41865e-07	161079	2.68628e+07	0.000141879	0.000000000000000E+000	0.000141879	0	19	0.00846875
2	0	0	1	0	1	3	450.397	-0.999851	-0.999901	-8.17966	-0.000452	-0.0196696	-0.000125556	47	2.3901e-14	1.25541e-07	66871.5	6.96996e+06	0.000125556	0.000000000000000E+000	0.000125556	0	23	0.00817885
[...]
2	1	0	0	0	1	4	552.981	2.54262e-05	0.000165038	0.00480855	1.19159e-06	-0.0045753	3.31008e-07	260	2.85823e-14	0.000000000000000E+000	12010.3	0.000000000000000E+000	0.000000000000000E+000	3.31008e-07	3.31008e-07	0	130	7.93595e-10
2	1	0	0	0	1	4	553.776	2.54262e-05	0.000119246	0.00786389	1.07909e-06	-0.0091509	2.99575e-07	268	1.63856e-14	0.000000000000000E+000	8074.73	0.000000000000000E+000	0.000000000000000E+000	2.99575e-07	2.99575e-07	0	134	9.37737e-10
2	1	0	0	0	1	4	554.571	2.54262e-05	6.96372e-05	0.0147384	1.02496e-06	-0.0134913	2.84571e-07	276	1.29003e-14	0.000000000000000E+000	5836.09	0.000000000000000E+000	0.000000000000000E+000	2.84571e-07	2.84571e-07	0	138	1.02634e-09
2	1	0	0	0	1	4	555.366	2.54262e-05	1.23966e-05	0.0132107	8.8947e-07	-0.0171129	2.468e-07	284	1.48745e-14	0.000000000000000E+000	10583.1	0.000000000000000E+000	0.000000000000000E+000	2.468e-07	2.468e-07	0	142	1.63768e-10
2	1	0	0	0	1	4	556.161	2.54262e-05	9.48548e-07	0.00862771	8.20208e-07	-0.0203161	2.27657e-07	292	1.70657e-14	0.000000000000000E+000	12633.4	0.000000000000000E+000	0.000000000000000E+000	2.27657e-07	2.27657e-07	0	146	8.18381e-12
2	1	0	0	0	1	4	556.956	2.54262e-05	2.76609e-05	0.00442664	7.95707e-07	-0.0233295	2.21448e-07	300	1.17822e-14	0.000000000000000E+000	9948.12	0.000000000000000E+000	0.000000000000000E+000	2.21448e-07	2.21448e-07	0	150	1.22445e-10
2	1	0	0	0	1	4	557.751	2.54262e-05	6.58213e-05	0.0204671	7.03149e-07	-0.0262996	1.95578e-07	308	1.28337e-14	0.000000000000000E+000	23063.2	0.000000000000000E+000	0.000000000000000E+000	1.95578e-07	1.95578e-07	0	154	1.34717e-09
2	1	0	0	0	0	4	578.821	2.54262e-05	2.00288e-05	0.0143565	2.83872e-07	-0.00108291	7.88714e-08	316	1.16174e-15	0.000000000000000E+000	10629.5	0.000000000000000E+000	0.000000000000000E+000	7.88714e-08	7.88714e-08	0	158	2.87542e-10
2	1	0	0	0	0	4	579.616	2.54262e-05	-1.81317e-05	0.0109192	2.2179e-07	-0.00564787	6.15708e-08	324	1.87043e-15	0.000000000000000E+000	14521.2	0.000000000000000E+000	0.000000000000000E+000	6.15708e-08	6.15708e-08	0	162	1.97983e-10
2	1	0	0	0	0	4	580.411	2.54262e-05	5.81893e-05	0.00900962	1.77048e-07	-0.0102058	4.91531e-08	332	3.85332e-15	0.000000000000000E+000	2318.52	0.000000000000000E+000	0.000000000000000E+000	4.91531e-08	4.91531e-08	0	166	5.24264e-10
2	1	0	0	0	0	4	581.206	2.54262e-05	-2.86743e-06	0.0174118	1.33298e-07	-0.014723	3.69942e-08	340	8.65338e-16	0.000000000000000E+000	1454.16	0.000000000000000E+000	0.000000000000000E+000	3.69942e-08	3.69942e-08	0	170	4.99271e-11
2	1	0	0	0	0	4	582.001	2.54262e-05	6.96372e-05	0.0105373	6.60987e-08	-0.0191181	1.86265e-08	348	1.26156e-15	0.000000000000000E+000	976.221	0.000000000000000E+000	0.000000000000000E+000	1.86265e-08	1.86265e-08	0	174	7.33788e-10
2	1	0	0	1	0	4	582.796	2.54262e-05	-7.53722e-05	0.0170299	3.40598e-09	-0.0225313	1.0348e-09	356	-7.79954e-17	0.000000000000000E+000	0.000000000000000E+000	0.000000000000000E+000	0.000000000000000E+000	1.0348e-09	1.0348e-09	0	178	1.28358e-09
2	0	0	1	0	0	3	583.596	-0.999851	-0.999939	-7.2875	-0.000729689	-0.0254817	-0.000202691	363	1.59152e-14	2.02669e-07	10376.8	7.97015e+06	0.000202691	0.000000000000000E+000	0.000202691	0	181	0.00728706
2	1	0	1	0	0	6	585.106	0.19994	0.200034	1.29645	0.00103307	-0.0266139	0.000287299	370	5.73983e-08	0.000000000000000E+000	5170.43	0.000000000000000E+000	0.000000000000000E+000	0.000287299	0.000287299	0	185	0.000259334
2	1	0	0	0	0	7	585.406	2.54262e-05	-1.04995e-05	0.0147384	1.0519e-06	-0.0263544	0.000359388	370	7.1763e-08	0.000000000000000E+000	1.6952e+08	0.000000000000000E+000	0.000000000000000E+000	0.000359388	0.000359388	0	185	1.54746e-10

File: SRDP_200ms.mpt
EC-Lab ASCII FILE
Nb header lines : 66

Chronoamperometry / Chronocoulometry

Run on channel : 1 (SN 3020)
User :
Electrode connection : standard
Ewe ctrl range : min = -10.00 V, max = 10.00 V
Ewe,I filtering : <None>
Channel : Grounded
Acquisition started on : 04/06/2022 13:48:24
Saved on :
	File : SRDP_2_1_01_srdp5x_cond1p5V_30xpulse-minus1V-read-plus200mV_t-100ms-dt-10-50-100-200-500ms-GISYA-EWE-materials_13_CA_C01.mpr
	Directory : C:\Users\AGH\Desktop\AnJ\2022-04-05-06_ITO_Ni[Me4Benzo]_Cu\
	Host : 192.109.209.128
Device : SP-300 (SN 0552)
Address : USB
EC-Lab for windows v11.20 (software)
Internet server v11.20 (firmware)
Command interpretor v11.20 (firmware)
Electrode material :
Initial state :
Electrolyte :
Comments :
Cable : standard
Electrode surface area : 0.001 cm²
Characteristic mass : 0.001 g
Equivalent Weight : 0.000 g/eq.
Density : 0.000 g/cm3
Ns                  0                   1                   2                   3                   4                   5                   6                   7
Ei (V)              0.000               0.200               0.000               -1.000              0.000               0.000               0.200               0.000
vs.                 Ref                 Ref                 Ref                 Ref                 Ref                 Ref                 Ref                 Ref
ti (h:m:s)          0:00:1.0000         0:00:1.0000         0:00:1.0000         0:00:0.1000         0:00:0.2000         0:00:0.0100         0:00:1.0000         0:00:0.1000
Imax                pass                pass                pass                pass                pass                pass                pass                pass
unit Imax           mA                  mA                  mA                  mA                  mA                  mA                  mA                  mA
Imin                pass                pass                pass                pass                pass                pass                pass                pass
unit Imin           mA                  mA                  mA                  mA                  mA                  mA                  mA                  mA
dQM                 0.000               0.000               0.000               0.000               0.000               0.000               0.000               0.000
unit dQM            mA.h                mA.h                mA.h                mA.h                mA.h                mA.h                mA.h                mA.h
record              I                   I                   I                   I                   I                   I                   I                   I
dI                  0.000               0.000               0.000               0.000               0.000               0.000               0.000               0.000
unit dI             µA                  µA                  µA                  µA                  µA                  µA                  µA                  µA
dQ                  0.000               0.000               0.000               0.000               0.000               0.000               0.000               0.000
unit dQ             mA.h                mA.h                mA.h                mA.h                mA.h                mA.h                mA.h                mA.h
dt (s)              0.5000              0.1000              0.1000              0.0050              0.0100              0.0010              0.1000              0.1000
dta (s)             0.1000              0.1000              0.1000              0.1000              0.1000              0.1000              0.1000              0.1000
E range min (V)     -10.000             -10.000             -10.000             -10.000             -10.000             -10.000             -10.000             -10.000
E range max (V)     10.000              10.000              10.000              10.000              10.000              10.000              10.000              10.000
I Range             100 mA              100 mA              100 mA              100 mA              100 mA              100 mA              100 mA              100 mA
I Range min         Unset               Unset               Unset               Unset               Unset               Unset               Unset               Unset
I Range max         Unset               Unset               Unset               Unset               Unset               Unset               Unset               Unset
I Range init        Unset               Unset               Unset               Unset               Unset               Unset               Unset               Unset
Bandwidth           5                   5                   5                   5                   5                   5                   5                   5
goto Ns'            0                   0                   0                   0                   3                   0                   0                   0
nc cycles           0                   0                   0                   0                   29                  0                   0                   0

Number of loops : 6
Loop 0 from point number 0 to 1308
Loop 1 from point number 1309 to 2617
Loop 2 from point number 2618 to 3926
Loop 3 from point number 3927 to 5235
Loop 4 from point number 5236 to 6544
Loop 5 from point number 6545 to 7853

mode	ox/red	error	control changes	Ns changes	counter inc.	Ns	time/s	control/V	Ewe/V	I/mA	dQ/C	(Q-Qo)/C	Q charge/discharge/mA.h	half cycle	Energy charge/W.h	Energy discharge/W.h	Capacitance charge/µF	Capacitance discharge/µF	Q discharge/mA.h	Q charge/mA.h	Capacity/mA.h	Efficiency/%	cycle number	P/W
2	1	0	0	0	0	0	601.808	2.54262e-05	0.000126878	0.00480855	0.0000000E+000	0.0000000E+000	0.000000000000000E+000	0	0.000000000000000E+000	0.000000000000000E+000	0.000000000000000E+000	0.000000000000000E+000	0.000000000000000E+000	0.000000000000000E+000	0.000000000000000E+000	0	0.000000000000000E+000	6.10099e-10
2	0	0	1	0	1	3	605.788	-0.999851	-0.999851	-7.07592	-0.000568176	-0.00140355	-0.000157827	7	1.13389e-14	1.5781e-07	9247.97	1.06389e+07	0.000157827	0.000000000000000E+000	0.000157827	0	3	0.00707487
2	0	0	1	0	1	3	606.983	-0.999851	-1	-7.01252	-0.000528076	-0.00417577	-0.000146688	15	1.49841e-14	1.46669e-07	15195.8	1.38001e+07	0.000146688	0.000000000000000E+000	0.000146688	0	7	0.00701255
2	0	0	1	0	1	3	608.178	-0.999851	-0.999924	-6.93309	-0.000487246	-0.00691895	-0.000135346	23	1.84392e-14	1.35339e-07	567515	487.214	0.000135346	0.000000000000000E+000	0.000135346	0	11	0.00693256
2	0	0	1	0	1	3	609.373	-0.999851	-0.999931	-7.03009	-0.000457023	-0.00967847	-0.000126951	31	1.88866e-14	1.26936e-07	140698	2.54906e+06	0.000126951	0.000000000000000E+000	0.000126951	0	15	0.00702961
2	0	0	1	0	1	3	610.568	-0.999851	-0.999908	-6.96058	-0.000419479	-0.0124305	-0.000116522	39	2.97975e-14	1.16513e-07	17442.3	1.99935e+06	0.000116522	0.000000000000000E+000	0.000116522	0	19	0.00695995
2	0	0	1	0	1	3	611.763	-0.999851	-0.999916	-6.98006	-0.000383997	-0.0151698	-0.000106666	47	2.28372e-14	1.06652e-07	42296.6	2.51656e+06	0.000106666	0.000000000000000E+000	0.000106666	0	23	0.00697947
[...]
2	1	0	0	0	1	4	724.641	2.54262e-05	9.63495e-05	0.0143565	2.20042e-06	-0.00306103	6.11245e-07	260	2.52017e-14	0.000000000000000E+000	19221.3	0.000000000000000E+000	0.000000000000000E+000	6.11245e-07	6.11245e-07	0	130	1.38324e-09
2	1	0	0	0	1	4	725.831	2.54262e-05	-5.6292e-05	0.00977346	2.14768e-06	-0.00618773	5.96564e-07	268	1.58805e-14	0.000000000000000E+000	12234.6	0.000000000000000E+000	0.000000000000000E+000	5.96564e-07	5.96564e-07	0	134	5.50168e-10
2	1	0	0	0	1	4	727.021	2.54262e-05	-2.86743e-06	0.0158841	1.95721e-06	-0.00928552	5.4353e-07	276	4.49283e-14	0.000000000000000E+000	46614.5	0.000000000000000E+000	0.000000000000000E+000	5.4353e-07	5.4353e-07	0	138	4.55467e-11
2	1	0	0	0	1	4	728.211	2.54262e-05	5.0557e-05	0.000607462	1.87735e-06	-0.0123438	5.21541e-07	284	3.86544e-14	0.000000000000000E+000	98403.6	0.000000000000000E+000	0.000000000000000E+000	5.21541e-07	5.21541e-07	0	142	3.07115e-11
2	1	0	0	0	1	4	729.401	2.54262e-05	0.000100166	0.00900964	1.67016e-06	-0.0153687	4.6385e-07	292	2.29652e-14	0.000000000000000E+000	13260.3	0.000000000000000E+000	0.000000000000000E+000	4.6385e-07	4.6385e-07	0	146	9.02457e-10
2	1	0	0	0	1	4	730.591	2.54262e-05	-5.24761e-05	0.0185575	1.61658e-06	-0.0183727	4.49104e-07	300	1.80241e-14	0.000000000000000E+000	12838.7	0.000000000000000E+000	0.000000000000000E+000	4.49104e-07	4.49104e-07	0	150	9.73826e-10
2	1	0	0	0	1	4	731.781	2.54262e-05	7.72693e-05	0.0109192	1.55466e-06	-0.0213647	4.3203e-07	308	3.2666e-14	0.000000000000000E+000	9478.41	0.000000000000000E+000	0.000000000000000E+000	4.3203e-07	4.3203e-07	0	154	8.4372e-10
2	1	0	0	0	0	4	753.112	2.54262e-05	3.91089e-05	0.0155022	6.45686e-07	-0.000693363	1.79344e-07	316	6.20995e-15	0.000000000000000E+000	13014.7	0.000000000000000E+000	0.000000000000000E+000	1.79344e-07	1.79344e-07	0	158	6.06275e-10
2	1	0	0	0	0	4	754.302	2.54262e-05	2.76609e-05	0.0105373	5.16023e-07	-0.00417067	1.4332e-07	324	7.87517e-16	0.000000000000000E+000	5200.25	0.000000000000000E+000	0.000000000000000E+000	1.4332e-07	1.4332e-07	0	162	2.91471e-10
2	1	0	0	0	0	4	755.492	2.54262e-05	8.49015e-05	0.00633622	3.88499e-07	-0.00752253	1.07878e-07	332	5.83211e-15	0.000000000000000E+000	12721.4	0.000000000000000E+000	0.000000000000000E+000	1.07878e-07	1.07878e-07	0	166	5.37955e-10
2	1	0	0	0	0	4	756.682	2.54262e-05	-4.86599e-05	0.0185575	2.48066e-07	-0.0108059	6.88144e-08	340	-3.93293e-15	0.000000000000000E+000	1352.47	0.000000000000000E+000	0.000000000000000E+000	6.88144e-08	6.88144e-08	0	170	9.03009e-10
2	1	0	0	0	0	4	757.872	2.54262e-05	-0.000109717	0.0170299	1.14202e-07	-0.0140482	3.18202e-08	348	-3.35201e-15	0.000000000000000E+000	638.697	0.000000000000000E+000	0.000000000000000E+000	3.18202e-08	3.18202e-08	0	174	1.86846e-09
2	1	0	0	1	0	4	759.062	2.54262e-05	-0.000189853	0.0185575	3.71151e-09	-0.0172548	1.0348e-09	356	-1.96461e-16	0.000000000000000E+000	0.000000000000000E+000	0.000000000000000E+000	0.000000000000000E+000	1.0348e-09	1.0348e-09	0	178	3.52322e-09
2	0	0	1	0	0	3	760.261	-0.999851	-0.999954	-7.88864	-0.000790056	-0.0204207	-0.00021946	363	3.17956e-14	2.19442e-07	61209.2	7.13782e+06	0.00021946	0.000000000000000E+000	0.00021946	0	181	0.00788828
2	1	0	1	0	0	6	762.172	0.19994	0.199992	1.46182	0.00117281	-0.0215893	0.000326483	370	6.51577e-08	0.000000000000000E+000	5878.42	0.000000000000000E+000	0.000000000000000E+000	0.000326483	0.000326483	0	185	0.000292352
2	1	0	0	0	0	7	762.471	2.54262e-05	2.38449e-05	0.012065	1.14524e-06	-0.0212949	0.000408269	370	8.14535e-08	0.000000000000000E+000	5.50224e+07	0.000000000000000E+000	0.000000000000000E+000	0.000408269	0.000408269	0	185	2.87688e-10