Folder: Biologic/data

Note: README.md
# Biologic
Some scripts for Biologic .mpt data

load_data.py - load data either from file (give path) or from dataframe (global variable in python console). It loads 4 standard columns from biologic .mpt file: time/s, control/V, Ewe/V and I/mA 
plot_time_ctrlV_I - plot Ewe/V and I/mA in function of time/s
...

File: test_SRDP_50ms.mpt
EC-Lab ASCII FILE
Nb header lines : 66

Chronoamperometry / Chronocoulometry

Run on channel : 1 (SN 3020)
User :
Electrode connection : standard
Ewe ctrl range : min = -10.00 V, max = 10.00 V
Ewe,I filtering : <None>
Channel : Grounded
Acquisition started on : 04/06/2022 13:48:24
Saved on :
	File : SRDP_2_1_01_srdp5x_cond1p5V_30xpulse-minus1V-read-plus200mV_t-100ms-dt-10-50-100-200-500ms-GISYA-EWE-materials_07_CA_C01.mpr
	Directory : C:\Users\AGH\Desktop\AnJ\2022-04-05-06_ITO_Ni[Me4Benzo]_Cu\
	Host : 192.109.209.128
Device : SP-300 (SN 0552)
Address : USB
EC-Lab for windows v11.20 (software)
Internet server v11.20 (firmware)
Command interpretor v11.20 (firmware)
Electrode material :
Initial state :
Electrolyte :
Comments :
Cable : standard
Electrode surface area : 0.001 cm²
Characteristic mass : 0.001 g
Equivalent Weight : 0.000 g/eq.
Density : 0.000 g/cm3
Ns                  0                   1                   2                   3                   4                   5                   6                   7
Ei (V)              0.000               0.200               0.000               -1.000              0.000               0.000               0.200               0.000
vs.                 Ref                 Ref                 Ref                 Ref                 Ref                 Ref                 Ref                 Ref
ti (h:m:s)          0:00:1.0000         0:00:1.0000         0:00:1.0000         0:00:0.1000         0:00:0.0500         0:00:0.0100         0:00:1.0000         0:00:0.1000
Imax                pass                pass                pass                pass                pass                pass                pass                pass
unit Imax           mA                  mA                  mA                  mA                  mA                  mA                  mA                  mA
Imin                pass                pass                pass                pass                pass                pass                pass                pass
unit Imin           mA                  mA                  mA                  mA                  mA                  mA                  mA                  mA
dQM                 0.000               0.000               0.000               0.000               0.000               0.000               0.000               0.000
unit dQM            mA.h                mA.h                mA.h                mA.h                mA.h                mA.h                mA.h                mA.h
record              I                   I                   I                   I                   I                   I                   I                   I
dI                  0.000               0.000               0.000               0.000               0.000               0.000               0.000               0.000
unit dI             µA                  µA                  µA                  µA                  µA                  µA                  µA                  µA
dQ                  0.000               0.000               0.000               0.000               0.000               0.000               0.000               0.000
unit dQ             mA.h                mA.h                mA.h                mA.h                mA.h                mA.h                mA.h                mA.h
dt (s)              0.5000              0.1000              0.1000              0.0050              0.0050              0.0010              0.1000              0.1000
dta (s)             0.1000              0.1000              0.1000              0.1000              0.1000              0.1000              0.1000              0.1000
E range min (V)     -10.000             -10.000             -10.000             -10.000             -10.000             -10.000             -10.000             -10.000
E range max (V)     10.000              10.000              10.000              10.000              10.000              10.000              10.000              10.000
I Range             100 mA              100 mA              100 mA              100 mA              100 mA              100 mA              100 mA              100 mA
I Range min         Unset               Unset               Unset               Unset               Unset               Unset               Unset               Unset
I Range max         Unset               Unset               Unset               Unset               Unset               Unset               Unset               Unset
I Range init        Unset               Unset               Unset               Unset               Unset               Unset               Unset               Unset
Bandwidth           5                   5                   5                   5                   5                   5                   5                   5
goto Ns'            0                   0                   0                   0                   3                   0                   0                   0
nc cycles           0                   0                   0                   0                   29                  0                   0                   0

Number of loops : 6
Loop 0 from point number 0 to 1008
Loop 1 from point number 1009 to 2017
Loop 2 from point number 2018 to 3026
Loop 3 from point number 3027 to 4035
Loop 4 from point number 4036 to 5044
Loop 5 from point number 5045 to 6053

mode	ox/red	error	control changes	Ns changes	counter inc.	Ns	time/s	control/V	Ewe/V	I/mA	dQ/C	(Q-Qo)/C	Q charge/discharge/mA.h	half cycle	Energy charge/W.h	Energy discharge/W.h	Capacitance charge/µF	Capacitance discharge/µF	Q discharge/mA.h	Q charge/mA.h	Capacity/mA.h	Efficiency/%	cycle number	P/W
2	1	0	0	0	0	0	292.677	2.54262e-05	9.48552e-07	0.0181756	0.0000000E+000	0.0000000E+000	0.000000000000000E+000	0	0.000000000000000E+000	0.000000000000000E+000	0.000000000000000E+000	0.000000000000000E+000	0.000000000000000E+000	0.000000000000000E+000	0.000000000000000E+000	0	0.000000000000000E+000	1.72405e-11
2	0	0	1	0	1	3	296.157	-0.999851	-0.999908	-10.6327	-0.000321118	-0.0013649	-8.91994e-05	7	1.58435e-14	8.91904e-08	0.000000000000000E+000	3.11774e+06	8.91994e-05	0.000000000000000E+000	8.91994e-05	0	3	0.0106317
2	0	0	1	0	1	3	296.752	-0.999851	-0.999809	-9.8578	-0.000248696	-0.00540878	-6.90823e-05	15	9.74863e-15	6.90754e-08	23690.7	0.000000000000000E+000	6.90823e-05	0.000000000000000E+000	6.90823e-05	0	7	0.00985592
2	0	0	1	0	1	3	297.347	-0.999851	-0.999927	-9.21313	-0.000186167	-0.00917364	-5.1713e-05	23	1.40037e-14	5.17068e-08	9360.21	4.87264e+06	5.1713e-05	0.000000000000000E+000	5.1713e-05	0	11	0.00921246
2	0	0	1	0	1	3	297.942	-0.999851	-0.99987	-8.90759	-0.00013511	-0.0127467	-3.75307e-05	31	5.26506e-15	3.75268e-08	42526.4	2.52989e+06	3.75307e-05	0.000000000000000E+000	3.75307e-05	0	15	0.00890644
2	0	0	1	0	1	3	298.537	-0.999851	-0.999958	-8.7533	-8.9433e-05	-0.016229	-2.48425e-05	39	1.39637e-14	2.48392e-08	163519	1.02001e+06	2.48425e-05	0.000000000000000E+000	2.48425e-05	0	19	0.00875293
2	0	0	1	0	1	3	299.132	-0.999851	-0.999988	-8.69945	-4.51157e-05	-0.0196691	-1.2532e-05	47	4.89196e-16	1.25317e-08	10402.8	246228	1.2532e-05	0.000000000000000E+000	1.2532e-05	0	23	0.00869935
2	0	0	1	1	1	3	299.727	-0.999851	-0.99984	-8.5463	-1.70926e-06	-0.0230654	-4.74457e-07	55	1.31349e-14	4.74381e-10	27985.1	0.000000000000000E+000	4.74457e-07	0.000000000000000E+000	4.74457e-07	0	27	0.00854493
2	1	0	1	0	0	1	319.088	0.19994	0.200034	2.3028	0.00092399	0.000937339	0.000260372	62	5.13408e-08	0.000000000000000E+000	4686.55	0.000000000000000E+000	0.000000000000000E+000	0.000260372	0.000260372	0	31	0.000460638
2	0	0	1	0	1	3	321.203	-0.999851	-0.999893	-11.2044	-0.000731278	-0.00178049	-0.000203133	69	1.03977e-14	2.03116e-07	3789.24	1.91401e+07	0.000203133	0.000000000000000E+000	0.000203133	0	34	0.0112032
2	0	0	1	0	1	3	321.798	-0.999851	-0.999939	-11.1204	-0.00067012	-0.00619121	-0.000186144	77	9.5065e-15	1.86124e-07	4554.59	4.62284e+06	0.000186144	0.000000000000000E+000	0.000186144	0	38	0.0111197
2	0	0	1	0	1	3	322.393	-0.999851	-0.999882	-11.0139	-0.000608209	-0.0105596	-0.000168947	85	8.00332e-15	1.68929e-07	4319.77	1.77154e+07	0.000168947	0.000000000000000E+000	0.000168947	0	42	0.0110126
2	0	0	1	0	1	3	322.988	-0.999851	-0.999912	-10.9275	-0.000548894	-0.014887	-0.00015247	93	1.16483e-14	1.52452e-07	25695.6	5.13317e+06	0.00015247	0.000000000000000E+000	0.00015247	0	46	0.0109266
2	0	0	1	0	1	3	323.583	-0.999851	-0.999996	-10.7748	-0.000487854	-0.0191792	-0.000135515	101	1.48275e-14	1.35504e-07	3177.32	1.16262e+07	0.000135515	0.000000000000000E+000	0.000135515	0	50	0.0107747
2	0	0	1	0	1	3	324.178	-0.999851	-0.999962	-10.3661	-0.000419508	-0.0233023	-0.00011653	109	8.20071e-15	1.16523e-07	26218.4	4.99869e+06	0.00011653	0.000000000000000E+000	0.00011653	0	54	0.0103657
2	0	0	1	0	1	3	324.773	-0.999851	-0.999947	-10.6037	-0.000372959	-0.0273822	-0.0001036	117	6.00076e-15	1.0359e-07	6188.54	1.39359e+07	0.0001036	0.000000000000000E+000	0.0001036	0	58	0.0106031
2	1	0	0	1	0	2	344.699	2.54262e-05	3.91091e-05	0.0143565	2.87129e-09	0.00189911	0.000527531	124	1.04758e-07	0.000000000000000E+000	6.22086e+07	0.000000000000000E+000	0.000000000000000E+000	0.000527531	0.000527531	0	62	5.61468e-10
2	0	0	1	0	1	3	346.249	-0.999851	-0.999889	-9.92158	-0.000993124	-0.00207596	-0.000275868	131	1.00038e-14	2.75846e-07	4981.33	3.25427e+07	0.000275868	0.000000000000000E+000	0.000275868	0	65	0.00992048
2	0	0	1	0	1	3	346.844	-0.999851	-0.999893	-9.73444	-0.000927987	-0.00595455	-0.000257774	139	1.00842e-14	2.57754e-07	1961.15	1.21538e+07	0.000257774	0.000000000000000E+000	0.000257774	0	69	0.0097334
2	0	0	1	0	1	3	347.439	-0.999851	-0.999813	-9.72489	-0.0008752	-0.00979764	-0.000243111	147	8.86667e-15	2.43087e-07	16937.4	2.08868e+07	0.000243111	0.000000000000000E+000	0.000243111	0	73	0.00972307
2	0	0	1	0	1	3	348.034	-0.999851	-0.999859	-9.62827	-0.00082028	-0.0136109	-0.000227855	155	8.71067e-15	2.27828e-07	3115.02	1.95483e+07	0.000227855	0.000000000000000E+000	0.000227855	0	77	0.00962691
2	0	0	1	0	1	3	348.629	-0.999851	-0.999996	-9.63858	-0.000772728	-0.0174143	-0.000214647	163	1.55388e-15	2.14627e-07	15530.7	4.22012e+06	0.000214647	0.000000000000000E+000	0.000214647	0	81	0.00963854
2	0	0	1	0	1	3	349.224	-0.999851	-0.999817	-9.63209	-0.000723123	-0.0212169	-0.000200867	171	1.52781e-14	2.00847e-07	5024.65	6.35182e+07	0.000200867	0.000000000000000E+000	0.000200867	0	85	0.00963032
2	0	0	1	0	1	3	349.819	-0.999851	-0.999992	-9.71496	-0.000682569	-0.0250189	-0.000189602	179	8.5508e-15	1.89586e-07	4277.38	6.16672e+06	0.000189602	0.000000000000000E+000	0.000189602	0	89	0.00971489
2	1	0	0	0	0	2	370.41	2.54262e-05	-6.01081e-05	0.016648	9.21271e-06	0.00210551	0.000584864	186	1.15739e-07	0.000000000000000E+000	2.20701e+07	0.000000000000000E+000	0.000000000000000E+000	0.000584864	0.000584864	0	93	1.00068e-09
2	1	0	0	0	1	4	371.29	2.54262e-05	2.76609e-05	0.0105373	3.99422e-07	-0.00190711	1.1095e-07	194	-9.86137e-17	0.000000000000000E+000	4757.68	0.000000000000000E+000	0.000000000000000E+000	1.1095e-07	1.1095e-07	0	97	2.91471e-10
2	1	0	0	0	1	4	371.885	2.54262e-05	-2.95797e-05	0.0151203	2.93649e-07	-0.00578409	8.14907e-08	202	2.04136e-15	0.000000000000000E+000	4046.17	0.000000000000000E+000	0.000000000000000E+000	8.14907e-08	8.14907e-08	0	101	4.47255e-10
2	1	0	0	0	1	4	372.48	2.54262e-05	4.29251e-05	0.0128288	2.43941e-07	-0.00954067	6.77796e-08	210	4.79206e-15	0.000000000000000E+000	9134.66	0.000000000000000E+000	0.000000000000000E+000	6.77796e-08	6.77796e-08	0	105	5.50677e-10
2	1	0	0	0	1	4	373.075	2.54262e-05	2.00288e-05	0.00366281	2.06226e-07	-0.0134182	5.71729e-08	218	5.71787e-15	0.000000000000000E+000	4903.27	0.000000000000000E+000	0.000000000000000E+000	5.71729e-08	5.71729e-08	0	109	7.33614e-11
2	1	0	0	0	1	4	373.67	2.54262e-05	-5.62919e-05	0.0235225	1.29861e-07	-0.0171519	3.62181e-08	226	6.50377e-16	0.000000000000000E+000	3796.42	0.000000000000000E+000	0.000000000000000E+000	3.62181e-08	3.62181e-08	0	113	1.32412e-09
2	1	0	0	0	1	4	374.265	2.54262e-05	2.00288e-05	0.0135926	6.60223e-08	-0.0207991	1.81091e-08	234	3.62702e-16	0.000000000000000E+000	0.000000000000000E+000	0.000000000000000E+000	0.000000000000000E+000	1.81091e-08	1.81091e-08	0	117	2.72243e-10
2	1	0	0	1	1	4	374.86	2.54262e-05	-4.86599e-05	0.00939155	1.87831e-09	-0.0244268	5.17401e-10	242	-2.51767e-17	0.000000000000000E+000	0.000000000000000E+000	0.000000000000000E+000	0.000000000000000E+000	5.17401e-10	5.17401e-10	0	121	4.56992e-10
2	0	0	1	0	0	3	395.735	-0.999851	-0.999798	-9.9445	-0.000151378	0.00161683	-4.20494e-05	249	9.69395e-08	4.2044e-08	4.21238e+07	2.08857e+06	4.20494e-05	0.000000000000000E+000	4.20494e-05	0	124	0.00994248
2	0	0	1	0	0	3	396.33	-0.999851	-1.00007	-10.1041	-0.000103181	-0.00232608	-2.86614e-05	257	5.77176e-15	2.86602e-08	0.000000000000000E+000	450570	2.86614e-05	0.000000000000000E+000	2.86614e-05	0	128	0.0101049
2	0	0	1	0	0	3	396.925	-0.999851	-0.999752	-10.0205	-5.20498e-05	-0.00627582	-1.44584e-05	265	1.38113e-14	1.44549e-08	4781.25	310106	1.44584e-05	0.000000000000000E+000	1.44584e-05	0	132	0.010018
2	0	0	1	1	0	3	397.52	-0.999851	-1.00003	-6.85021	-1.37004e-06	-0.00979784	-3.80549e-07	273	5.7137e-15	3.8056e-10	2816.8	0.000000000000000E+000	3.80549e-07	0.000000000000000E+000	3.80549e-07	0	136	0.00685042
2	1	0	0	0	1	4	398.12	2.54262e-05	7.34534e-05	0.0113011	5.45273e-07	-0.012522	1.5134e-07	280	8.81622e-15	0.000000000000000E+000	5948.83	0.000000000000000E+000	0.000000000000000E+000	1.5134e-07	1.5134e-07	0	140	8.30106e-10
2	1	0	0	0	1	4	398.715	2.54262e-05	0.000111614	0.00480855	5.24025e-07	-0.0152118	1.45649e-07	288	5.11371e-15	0.000000000000000E+000	12491.1	0.000000000000000E+000	0.000000000000000E+000	1.45649e-07	1.45649e-07	0	144	5.367e-10
2	1	0	0	0	1	4	399.31	2.54262e-05	0.000130694	0.00671813	4.22988e-07	-0.0178751	1.1745e-07	296	1.28422e-15	0.000000000000000E+000	1678.8	0.000000000000000E+000	0.000000000000000E+000	1.1745e-07	1.1745e-07	0	148	8.78019e-10
2	1	0	0	0	1	4	399.905	2.54262e-05	-2.57636e-05	0.0082458	3.96348e-07	-0.0205129	1.10207e-07	304	4.54897e-15	0.000000000000000E+000	7426.23	0.000000000000000E+000	0.000000000000000E+000	1.10207e-07	1.10207e-07	0	152	2.12442e-10
2	0	0	1	0	0	3	420.781	-0.999851	-0.999863	-6.72418	-0.000340166	0.00091043	-9.44906e-05	311	6.82327e-08	9.44853e-08	1.56057e+07	3.7131e+06	9.44906e-05	0.000000000000000E+000	9.44906e-05	0	155	0.00672325
2	0	0	1	0	0	3	421.376	-0.999851	-0.999916	-6.60731	-0.000298743	-0.00171539	-8.29841e-05	319	6.78729e-15	8.2972e-08	137898	2.61045e+06	8.29841e-05	0.000000000000000E+000	8.29841e-05	0	159	0.00660675
2	0	0	1	0	0	3	421.971	-0.999851	-0.999931	-6.59051	-0.0002646	-0.00431867	-7.35e-05	327	7.72857e-15	7.3491e-08	141549	4.62422e+06	7.35e-05	0.000000000000000E+000	7.35e-05	0	163	0.00659005
2	0	0	1	0	0	3	422.566	-0.999851	-0.999966	-6.58058	-0.000231784	-0.00692817	-6.43844e-05	335	4.15044e-15	6.43794e-08	11511.2	1.59831e+06	6.43844e-05	0.000000000000000E+000	6.43844e-05	0	167	0.00658035
2	0	0	1	0	0	3	423.161	-0.999851	-0.99992	-6.542	-0.000197155	-0.0095139	-5.47654e-05	343	2.86089e-15	5.47614e-08	3953.68	1.52009e+06	5.47654e-05	0.000000000000000E+000	5.47654e-05	0	171	0.00654148
2	0	0	1	0	0	3	423.756	-0.999851	-0.999882	-6.52787	-0.00016437	-0.0120917	-4.56583e-05	351	9.21289e-15	4.56523e-08	7867.17	3.59072e+06	4.56583e-05	0.000000000000000E+000	4.56583e-05	0	175	0.0065271
2	0	0	1	0	0	3	424.351	-0.999851	-0.999889	-6.51756	-0.000131453	-0.0146638	-3.65146e-05	359	1.17322e-14	3.65098e-08	10459.5	0.000000000000000E+000	3.65146e-05	0.000000000000000E+000	3.65146e-05	0	179	0.00651684
2	0	0	1	0	0	3	424.946	-0.999851	-0.999924	-6.71425	-0.000102088	-0.017258	-2.83577e-05	367	1.86695e-15	2.83525e-08	16704.2	495444	2.83577e-05	0.000000000000000E+000	2.83577e-05	0	183	0.00671373
2	1	0	0	0	0	7	426.341	2.54262e-05	0.000107798	0.00862772	1.14539e-06	-0.0172845	0.000335073	370	6.69121e-08	0.000000000000000E+000	9.29714e+06	0.000000000000000E+000	0.000000000000000E+000	0.000335073	0.000335073	0	185	9.30049e-10